Folder: MG-LDA/data/extra_edited

Note: data/extra_edited/(Canon EOS 600D (Kiss X5 - Rebel T3i.txt
0	من
1	ميخواستم
2	nikon
3	d3100
4	رو
5	بخرم
6	که
7	با
8	راهنمايي
9	افراد
10	حرفه
11	اي
12	پول
13	قرض
14	کردم
15	و
16	اينو
17	گرفتم
17	فقط
18	اينو
19	بگم
20	که
21	مفيد
22	ترين
23	کار
24	عمرم
25	رو
26	کردم
26	
26	کيفيت
27	عالي	OP	
28	و
29	بينظير
29	فوکوسش	OP	
30	در
31	حالت
32	دستي
33	خيلي
34	عاليه
34	13	OP	
35	تا
36	حالت
37	تصوير
38	برداري
39	داره
40	و
41	ميتونين
42	لنز	T
43	هاي
44	خوبي	OP		42
45	براش
46	بخرين
46	از
47	نظر
48	من
49	حتي
50	اگه
51	مبتدي
52	هستين
53	و
54	دوربين
55	هم
56	دستتون
57	نگرفتين
58	يا
59	اينکه
60	خيلي
61	حرفه
62	اي
63	هستين
64	بازم
65	همينو	T
66	بخرين.	OP		65
[+2]
[@@@]
0	بهتره
1	از
2	همينجا	T
3	بگيرين
4	خيلي
5	مطمئن	OP		2
6	تره
[+2]
[@@@]
0	من
1	خيلي
2	بين
3	۶۰۰D
4	با
5	۵۱۰۰D
6	مونده
7	بودم
8	
8	با
9	کلي
10	تحقيق
11	۶۰۰D	T
12	رو
13	گرفتم
13	راضيم
14	واقعا
14	
[+2]
[@@@]
0	من
1	اين
2	دوربين
3	رو
4	چند
5	وقتي
6	هست
7	که
8	از
9	اين
10	سايت	T
11	بسيار
12	خوب	OP		10
13	ديجي
14	کالا
15	خريداري
16	کردم
17	دوربين	T
18	بسيار
19	خوبيه	OP		17
20	فقط
21	يکم
22	تو
23	شب
24	عکسبرداري	T
25	رو
26	مشکل	ON		24
27	ميکنه
[+1]
[@@@]
0	سلام
1	
1	ممنون
2	از
3	سايت	T
4	بسيار
5	عاليتون	OP		3
6	که
7	اطلاعات	T
8	فني
9	کاربران
10	رو
11	بالا	OP		7
12	ميبره
13	و
14	با
15	معرفي
16	خوبي
17	که
18	از
19	کالاها
20	ميکنيد
21	باعث
22	خريد
23	آگاهانه
24	و
25	خوب
26	علاقمندان
27	به
28	خصوص
29	عکاسي
30	ميشيد.
[+2]
[@@@]
0	به
1	نظرم
2	با
3	بررسيهايي
4	که
5	انجام
6	دادم
7	تو
8	اين
9	رنج
10	قيمت
11	بهترين	OP		12
12	انتخاب	T
13	600d
14	است
15	مخصوصا
16	اگه
17	فيلمبرداري
18	براتون
19	مهم
20	باشه
21	مثل
22	خودم.
[+1]
[@@@]
0	والا
1	5100
2	نيکون
3	هم
4	انتخاب
5	خوبيه
6	بديش
7	محدوديت
8	5
9	دقيقه
10	اي
11	ضبط
12	ويدئو
13	است.
[-1]
[@@@]
0	موفق
1	باشيد
[0]
[@@@]
0	اين
1	دوربين	T
2	مناسب	OP		1
3	افراد
4	مبتدي
5	و
6	حرفه
7	اي
8	است
9	ولي
10	لنز
11	کيت
12	18-55
13	لنز
14	حرفه
15	اي
16	محسوب
17	نمي
18	شود
19	و
20	بايد
21	لنز
22	حرفه
23	اي
24	تري
25	انتخاب
26	کنيد.
[-1]
[@@@]
0	مثل
1	لنز
2	70-300
3	البته
4	در
5	کنار
6	لنز
7	18-55.
[0]
[@@@]
0	سلام
0	از
1	سايت	T
2	خوبتون	OP		1
3	ممنون
3	به
4	نظر
5	من
6	اين
7	دوربين	T
8	براي
9	کسي
10	که
11	ميخواد
12	عکاسي
13	رو
14	در
15	سطح
16	پيشرفته
17	آغاز
18	کنه
19	عاليه	OP		7
20	و
21	بعد
22	از
23	60D
24	بهترين	OP		25
25	گزينست
25	دوربين	T
26	جديد
27	کنن
28	650D،
29	به
30	نظرم
31	الان
32	با
33	صرفه
34	نيست
35	که
36	اون
37	دوربين
38	رو
39	بخريم
40	چون
41	تازه
42	اومده
43	و
44	قيمتش
45	بالاست
45	
[+2]
[@@@]
0	از
1	نظر
2	ظاهری
3	هم
4	600D
5	بسیار
6	شبیه
7	به
8	دوربین
9	مدل
10	پیشین
11	خود
12	یعنی
13	550D
14	می‌باشد
15	و
16	فقط
17	تغییراتی
18	جزئی
19	را
20	شاهد
21	هستیم
22	که
23	آن
24	هم
25	برای
26	سازگاری
27	با
28	نمایشگر
29	چرخنده
30	بوده
31	است.
[0]
[@@@]
0	600D
1	همانند
2	دیگر
3	دوربین‌های
4	سری
5	Rebel
6	یک
7	دوربین
8	نسبتا
9	کوچک
10	با
11	بدنه‌ی
12	پلاستیکی
13	و
14	دستگیره‌ای
15	نسبتا
16	کوچک
17	است.
[0]
[@@@]
0	در
1	حقیقت
2	اگر
3	دستان
4	بزرگی
5	داشته
6	باشید
7	این
8	دستگیره	T
9	به
10	نظرتان
11	خیلی
12	کوچک	ON		8
13	خواهد
14	آمد.
[-1]
[@@@]
0	از
1	نظر
2	کیفیت
3	ساخت
4	هم
5	باید
6	گفت
7	که
8	600D	T
9	برای
10	رده‌ی
11	کاربرانی
12	که
13	ساخته

Note: data/extra_edited/(Canon IXY 430F (IXUS 245 HS_Anvari.txt
0	بسیار
1	خوب،
2	این
3	دوربین	T
4	نیز
5	مثل
6	دیگر
7	دوربین‌های
8	سری
9	ایکسوس
10	زیباست.	OP		3
[+1]
[@@@]
0	زیبا،	OP	
1	باریک	OP	
2	و
3	خوش	OP	
4	ساخت
5	با
6	جنسی	T
7	فلزی	O		6
8	که
9	در
10	رنگ‌های	T
11	متنوع	OP		10
12	هم
13	موجود
14	می‌باشد.
[+1]
[@@@]
0	ظاهر	T
1	این
2	دوربین
3	کاملاً
4	کلاسیک	OP		0
5	است
6	و
7	کاملاً
8	در
9	کف
10	دست
11	هم
12	جای
13	می‌شود.
[+2]
[@@@]
0	در
1	قسمت
2	پشتی
3	این
4	دوربین
5	نمایشگر
6	3.5
7	اینچی
8	قرار
9	گرفته
10	است
11	که
12	تقریباً
13	تمام
14	این
15	قسمت
16	را
17	در
18	بر
19	گرفته
20	است.
[0]
[@@@]
0	هیچ
1	دکمه‌ی
2	فیزیکی
3	جز
4	دکمه
5	ی
6	Playback
7	نیز
8	در
9	آن
10	قسمت
11	دیده
12	نمی‌شود.
[0]
[@@@]
0	این
1	دوربین
2	مجهز
3	به
4	سنسور
5	تصویر
6	16
7	مگاپیکسلی
8	BSI-CMOS
9	است.
[+1]
[@@@]
0	معمولاً
1	کانن
2	عادت
3	به
4	استفاده
5	از
6	رزولوشن‌های
7	بالا
8	ندارد.
[-1]
[@@@]
0	با
1	این
2	حال
3	ترجیح
4	داده
5	که
6	از
7	آن
8	استفاده
9	کند.
[0]
[@@@]
0	کیفیت
1	بالای
2	دیگر
3	دوربین‌های
4	سری
5	ایکسوس
6	کانن
7	را
8	باید
9	از
10	این
11	دوربین
12	هم
13	انتظار
14	داشته
15	باشیم.
[0]
[@@@]
0	این
1	دوربین
2	توانایی
3	فیلم‌برداری
4	Full
5	HD
6	را
7	هم
8	طبق
9	انتظار
10	دارد.
[0]
[@@@]
0	در
1	جلوی
2	سنسور
3	تصویر،
4	لنز
5	24
6	میلی‌متری
7	این
8	دوربین
9	با
10	توانایی
11	زوم
12	5
13	برابر
14	قرار
15	دارد.
[0]
[@@@]
0	این
1	لنز	T
2	خیلی
3	واید	OP		1
4	است
5	و
6	توانایی
7	زوم	T
8	آن
9	نیز
10	کاملاً
11	در
12	حد
13	یک
14	دوربین
15	کامپکت
16	سطح
17	متوسط	O		7
18	است.
[+1]
[@@@]
0	در
1	ضمن
2	کمینه‌ی
3	نسبت
4	کانونی
5	f/2.7
6	را
7	ارائه
8	می‌دهد
9	که
10	باعث
11	می‌شود
12	245
13	HS
14	تبدیل
15	به
16	یک
17	لنز	T
18	بسیار
19	سریع	OP		17
20	شود.
[+2]
[@@@]
0	این
1	دوربین
2	هم
3	از
4	لرزش‌گیر
5	تصویر
6	اپتیکال
7	بهره
8	می‌برد.
[+1]
[@@@]
0	تفاوت
1	این
2	دوربین
3	با
4	Ixus
5	240
6	HS
7	مجهز
8	بودن
9	آن
10	به
11	Wi-Fi
12	داخلی
13	می‌باشد.
[+1]
[@@@]
0	با
1	استفاده
2	از
3	Wi-Fi
4	می‌توانید
5	تصاویر
6	را
7	به
8	صورت
9	بی‌سیم
10	به
11	دستگاه‌های
12	سازگار
13	منتقل
14	نمایید.
[0]
[@@@]
0	در
1	کل
2	باید
3	گفت
4	که
5	Ixus
6	245
7	HS
8	نمونه‌ی
9	کاملی
10	از
11	یک
12	دوربین	T
13	سطح
14	متوسط	O		12
15	و
16	خوب	OP		12
17	است.
[+1]
[@@@]

Note: data/extra_edited/Adata Dashdrive HV610 USB 3.0 - 1TB.txt
0	با
1	نظرات
2	دوستان
3	کاملا
4	موافقم
4	فقط
5	يه
6	نقطه
7	ضعف
8	به
9	نظرم
10	ميرسه
11	و
12	اون
13	محل	T
14	اتصال
15	کابل
16	با
17	هارده
18	که
19	گاهي
20	قطع	ON		13
21	و
22	وصل
23	ميشه
24	
24	در
25	مجموع
26	محصول	T
27	خوبيه.	OP		26
[+1]
[@@@]
0	8/10
[0]
[@@@]
0	من
1	رنگ	T
2	سفيدش
3	رو
4	خريدم
5	خيلي
6	زيباست	OP		1
7	علاوه
8	بر
9	اين
10	يکي
11	از
12	پرسرعت	OP		14
13	ترين
14	هاردهاي	T
15	بازاره
16	و
17	گارانتي	T
18	خيلي
19	خوبي	OP		17
20	هم
21	داره.
[+2]
[@@@]
0	با
1	خيال
2	راحت
3	بخريد.
[+2]
[@@@]
0	نسبت
1	به
2	قيمت
3	بسيار
4	خوب
5	و
6	از
7	لحاظ
8	ظاهر	T
9	هم
10	بسيار
11	زيبا	OP		8
12	است.
[+1]
[@@@]
0	اين
1	هارد	T
2	اکسترنال
3	نسبت
4	به
5	هم
6	رده
7	هاش
8	کمي
9	ارزون	OP		1
10	تر
11	هست
11	طراحي
12	بسيار
13	زيبايي	OP	
14	داره
15	و
16	قاب
17	آبي
18	رنگش
19	رو
20	ميتونيد
21	برداريد
21	کابل
22	usb3
23	اون
24	رو
25	قاب
26	آبي
27	رنگش
28	سوار
29	ميشه
29	همچنين
30	اين
31	هارد	T
32	اکسترنال
33	پرسرعت	OP		31
34	ترين
35	هارد
36	توي
37	بازاره
37	در
38	ضمن
39	هارد
40	هاي
41	وسترن
42	هم
43	ديگه
44	اون
45	هاردهاي
46	قديم
47	نيستن
48	و
49	کيفيت	T
50	سابق
51	رو
52	ندارن
52	در	ON		49
53	کل
54	هارد	T
55	بسيار
56	عالي	OP		54
57	هست
58	و
59	من
60	ازش	T
61	خيلي
62	راضيم	OP		60
[+2]
[@@@]
0	خيلي
1	زيباست.
[+2]
[@@@]
0	هارد	T
1	خوبيه	OP		0
2	مخصوصا
3	نسبت
4	به
5	قيمتش.
[+1]
[@@@]
0	طراحي	T
1	منحصر	OP		0
2	به
3	فردي
4	داره
5	مخصوصا
6	محل	T
7	قرار
8	گرفتن
9	کابل
10	ايده
11	ي
12	بسيار
13	جالبيه.	OP		6
[+2]
[@@@]
0	به
1	نظرم
2	براي
3	کساني
4	که
5	نسبت
6	به
7	هزينه
8	و
9	پولي
10	که
11	ميپردازن
12	انتظار
13	بهترين
14	رو
15	دارن
16	انتخاب	T
17	اوله	OP		16
18	
18	البنه
19	يه
20	مقدار
21	محل	T
22	اتصال
23	کابل
24	با
25	هارد
26	مشکل	ON		21
27	داره
28	که
29	شله.	ON		21
[+1]
[@@@]
0	گاهي
1	ام
2	اتصالش	T
3	قطع	ON		2
4	ميشه
5	
[-1]
[@@@]
0	تاکنون
1	نقدی
2	برای
3	اين
4	محصول
5	درج
6	نشده
7	است.
[]
[@@@]

Note: README.md
# MG-LDA
## NLP Persian Aspect Extraction from the SentiPers dataset using Multi-Grained LDA 
This repository hosts an implementation of the MG-LDA algorithm, as stated in the original paper. It is used to extract aspects from the SentiPers dataset in an unsupervised manner, which can be further exploited in Persian Sentiment Analysis.
<br/>SentiPers consists of numerous reviews, each having their opinions and targets labeled, thus being very beneficial for Sentiment Analysis.
<br/>In this project, a vigorous preprocessing procedure has been applied (Stopwords, rephrasing slangs, etc.) to produce the best input for our model. Nevertheless, there is still room for improvement, so feel free to modify the data or contact me in case of any questions.
The elicited aspects are stored in the results directory.

File: Sony Cyber-Shot DSC-HX10V_Hosseini.txt
0	پیش
1	از
2	این
3	و
4	در
5	نقد
6	و
7	بررسی‌های
8	پیشین،
9
10	سال
11	2012
12	را
13	سال
14	دوربین‌های
15	کامپکت
16	سوپرزوم
17	نامیده
18	بودیم.
[0]
[@@@]
0	سالی
1	که
2	در
3	آن
4	به
5	وفور
6	شاهد
7	دوربین
8	هایی
9	با
10	توانایی
11	زوم
12	بالا
13	ولی
14	با
15	بدنه
16	هایی
17	کم
18	و
19	بیش
20	شبیه
21	به
22	دوربین‌های
23	کامپکت
24	معمولی
25	بوده
26	ایم.
[0]
[@@@]
0	می‌توان
1	گفت
2	که
3	کمپانی
4	سونی
5	هرچند
6	که
7	سابقه‌ی
8	بسیار
9	درخشانی
10	در
11	تولید
12	دوربین‌های
13	مختلف
14	در
15	سری
16	Cybershot
17	خود
18	داشته،
19
20	ولی
21	در
22	این
23	زمینه
24	کمی
25	از
26	دیگر
27	برندها
28	عقب
29	مانده
30	بود.
[-1]
[@@@]
0	از
1	دوربین‌های
2	خیلی
3	شاخص
4	در
5	برندهای
6	دیگر
7	می‌توان
8	به
9	Canon
10	SX260
11	HS،
12
13	Fujifilm
14	Finepix
15	F770
16	EXR
17	و
18	Panasonic
19	Lumix
20	TZ30
21	اشاره
22	کرد.
[0]
[@@@]
0	البته
1	سونی
2	سال
3	پیش
4	مدل
5	HX100v
6	را
7	معرفی
8	کرده
9	بود
10	ولی
11	آن
12	دوربین
13	را
14	می‌شد
15	دوربین
16	حرفه‌ای
17	تری
18	دانست
19	که
20	هرچند
21	همچنان
22	آن
23	را
24	جزو
25	کامپکت‌های
26	سوپرزوم
27	قرار
28	دادیم
29	(و
30	همچنین
31	HX200v)،
32
33	ولی
34	در
35	حقیقت
36	با
37	دستگیره‌ی
38	بزرگ
39	و
40	امکانات
41	خاص
42	دیگری
43	که
44	دارد،
45
46	در
47	کلاس
48	دیگری
49	قرار
50	می‌گیرد
51	و
52	قیمت
53	کاملا
54	بالاتری
55	نیز
56	دارد.
[0]
[@@@]
0	اما
1	اکنون
2	سونی
3	با
4	HX10v،
5
6	HX20v
7	و
8
9	HX30v
10	وارد
11	مرحله‌ی
12	تازه‌ای
13	شده
14	است.
[0]
[@@@]
0	همانطور
1	که
2	گفتیم
3	این
4	سه
5	دوربین
6	از
7	نظر
8	طراحی
9	ظاهری
10	تقریبا
11	شبیه
12	به
13	هم
14	هستند.
[0]
[@@@]
0	البته
1	تفاوت
2	هایی
3	به
4	خصوص
5	در
6	دستگیره
7	و
8	قسمت
9	پشتی
10	دوربین
11	دیده
12	می‌شود
13	اما
14	هر
15	سه
16	ابعادی	T
17	کاملا
18	کوچک	O		16
19	و
20	دستگیره‌ای	T
21	نسبتا	OP		20
22	بزرگ
23	و
24	خوب	OP		20
25	دارند.
[+1]
[@@@]
0	البته
1	HX10v	T
2	با
3	ابعاد
4	105X60X34
5	میلی
6	متر
7	کمی
8	از
9	آن
10	دو
11	کوچکتر	O		1
12	و
13	با
14	وزن
15	234
16	گرم
17	کمی
18	سبک	OP		1
19	تر
20	است.
[0]
[@@@]
0	این
1	هم
2	دقیقا
3	به
4	دلیل
5	بهره
6	گیری
7	از
8	لنزی	T
9	کوچکتر	O		8
10	می‌باشد.
[+1]
[@@@]
0	به
1	هر
2	صورت
3	همانند
4	دیگر
5	دوربین‌های
6	سونی
7	سایبرشات،
8
9	HX10v	T
10	هم
11	کاملا
12	خوش	OP		9
13	ساخت
14	و
15	خوش	OP		9
16	دست
17	می‌باشد
18	و
19	با
20	توجه
21	به
22	دستگیره‌ی	T
23	نسبتا	OP		22
24	خوبی
25	که
26	بر
27	روی
28	آن
29	قرار
30	گرفته،
31
32	ارگونومی	T
33	بسیار
34	عالی	OP		32
35	را
36	ارائه
37	می‌دهد
38	که
39	تا
40	حدودی
41	از
42	ارگونومی
43	رقبا
44	در
45	دیگر
46	برندها
47	بهتر
48	می‌باشد.
[+2]
[@@@]
0	بدنه
1	فلزی
2	می‌باشد
3	و
4	سطح
5	دستگیره
6	از
7	جنسی
8	لاستیکی
9	پوشانده
10	شده.
[0]
[@@@]
0	در
1	قسمت
2	پشت
3	دوربین
4	هم
5	جایی
6	برای
7	قرار
8	گرفتن
9	انگشت
10	شست
11	قرار
12	دارد
13	و
14	چینش	T
15	دکمه‌ها
16	و
17	کنترل‌ها
18	نیز
19	عالیست.	OP		14
[+2]
[@@@]
0	همچنین
1	تنوع	T
2	رنگی
3	بسیار
4	خوب	OP		1
5	مشکی،
6
7	سفید،
8
9	قرمز
10	و
11	نقره‌ای
12	را
13	هم
14	ارائه
15	می‌دهد.
[+2]
[@@@]
0	از
1	سنسور
2	تصویر
3	که
4	شروع
5	کنیم،
6
7	باید
8	گفت
9	که
10	تقریبا
11	بهترین	OP		16
12	و
13	با	OP		16
14	کیفیت
15	ترین
16	سنسور	T
17	تصویری
18	که
19	بر
20	روی
21	دوربین‌های
22	کامپکت
23	استفاده
24	شده
25	بر
26	روی
27	این
28	دوربین
29	دیده
30	می‌شود.
[+2]
[@@@]
0	البته
1	در
2	بین
3	سنسورهای
4	1/2.3
5	اینچی
6	و
7	نه
8	بعضی
9	سنسورهای
10	بزرگتر
11	که
12	بر
13	روی
14	بعضی
15	از
16	دوربین‌ها
17	به
18	صورت
19	استثناء
20	استفاده
21	شده
22	اند.
[0]
[@@@]
0	این
1	سنسور
2	از
3	نوع
4	BSI-CMOS
5	می‌باشد
6	و
7	رزولوشن
8	18.1
9	مگاپیکسلی
10	را
11	ارائه
12	می‌دهد.
[0]
[@@@]
0	نخست
1	اینکه
2	رزولوشن	T
3	آن
4	فوق	OP		2
5	العاده
6	زیاد
7	است
8	و
9	به
10	خوبی
11	می‌تواند
12	تفکیک	T
13	جزئیاتی
14	بسیار
15	عالی	OP		12
16	را
17	از
18	خود
19	به
20	نمایش
21	بگذارد.
[+2]
[@@@]
0	تا
1	به
2	حال
3	چنین
4	رزولوشن	T
5	بالایی	OP		4
6	را
7	بر
8	روی
9	هیچ
10	دوربین
11	کامپکتی
12	ندیده
13	بودیم.
[+1]
[@@@]
0	دوم
1	این
2	که
3	از
4	نوع
5	BSI-CMOS
6	می‌باشد.
[0]
[@@@]
0	سنسورهای
1	BSI
2	یا
3	Backlit
4	illuminated
5	CMOS،
6
7	حساسیت	T
8	خیلی
9	بالاتری	OP		7
10	نسبت
11	به
12	نور
13	دارند
14	و
15	در
16	شرایط
17	تاریک
18	تر
19	می‌توانند
20	عکس‌های	T
21	با	OP		20
22	کیفیت
23	تر
24	و
25	با
26	نویز	T
27	کمتری	OP		26
28	را
29	بگیرند.
[+1]
[@@@]
0	بنابراین
1	از
2	کیفیت
3	عکس‌های
4	تولید
5	شده
6	توسط
7	این
8	دوربین
9	انتظار
10	خیلی
11	زیادی
12	داریم.
[0]
[@@@]
0	به
1	همین
2	دلیل
3	نیز
4	گستره‌ی	T
5	حساسیت
6	یا
7	ایزو
8	آن
9	تا
10	12,800
11	است
12	که
13	عالیست.	OP		4
[+2]
[@@@]
0	همچنین
1	کمینه‌ی
2	سرعت
3	شاتر
4	آن
5	نیز
6	تا
7	30
8	ثانیه
9	می‌باشد
10	که
11	دلیلی
12	بر
13	توانایی‌های
14	این
15	دوربین
16	برای
17	عکاسی
18	در
19	شب
20	است.
[+1]
[@@@]
0	این
1	دوربین
2	فلاش
3	Pop-up
4	هم
5	دارد
6	که
7	بردی
8	برابر
9	5.3
10	متر
11	را
12	ارائه
13	می‌دهد.
[0]
[@@@]
0	مودهای	T
1	عکاسی
2	مختلفی	O		0
3	بر
4	روی
5	این
6	دوربین
7	قرار
8	گرفته
9	اند.
[0]
[@@@]
0	این
1	مودهای
2	عکاسی
3	را
4	معمولا
5	بر
6	روی
7	دوربین‌های
8	پیشین
9	سونی
10	سایبرشات
11	هم
12	دیده
13	بودیم.
[0]
[@@@]
0	نخستین
1	و
2	مهم
3	ترین
4	آن‌ها
5	مود
6	عکاسی
7	کاملا
8	اتوماتیک
9	intelligent
10	Auto
11	می‌باشد.
[+1]
[@@@]
0	وقتی
1	دوربین
2	را
3	بر
4	روی
5	این
6	مود
7	قرار
8	می‌دهید،
9
10	دوربین
11	به
12	یک
13	دستگاه
14	کاملا
15	اتوماتیک
16	تبدیل
17	می‌شود.
[0]
[@@@]
0	سپس
1	تنها
2	کاری
3	که
4	برای
5	عکاسی
6	لازم
7	است
8	انجام
9	دهید
10	این
11	است
12	که
13	آن
14	را
15	به
16	سوی
17	سوژه
18	نشانه
19	بروید
20	و
21	دکمه‌ی
22	شاتر
23	را
24	بفشارید
25	تا
26	بهترین	OP		31
27	و
28	با	OP		31
29	کیفیت
30	ترین
31	عکس	T
32	گرفته
33	شود.
[+1]
[@@@]
0	دوربین
1	خود
2	با
3	تشخیص
4	نوع
5	صحنه،
6
7	شرایط
8	نوری
9	و
10	دیگر
11	پارامترها،
12
13	تنظیمات
14	را
15	بر
16	روی
17	بهترین
18	حالت
19	قرار
20	قرار
21	می‌دهد
22	تا
23	بهترین
24	عکس‌ها
25	گرفته
26	شود.
[+1]
[@@@]
0	اما
1	به
2	جز
3	این
4	مود،
5
6	HX10v
7	خوشبختانه
8	از
9	مودهای
10	Program
11	و
12	Manual
13	Exposure
14	هم
15	بهره
16	می‌برد.
[+1]
[@@@]
0	در
1	مود
2	Program
3	اختیاراتی
4	نسبی
5	در
6	تنظیمات
7	نوردهی
8	خواهید
9	داشت
10	و
11	این
12	در
13	حالیست
14	که
15	در
16	مود
17	Manual
18	می‌توانید
19	به
20	طور
21	کامل
22	تنظیمات
23	نوردهی
24	را
25	در
26	دست
27	بگیرید.
[0]
[@@@]
0	این
1	دوربین
2	از
3	مود
4	Sweep
5	Panorama
6	که
7	زمان
8	زیادی
9	است
10	آن
11	را
12	بر
13	روی
14	دوربین‌های
15	سونی
16	می‌بینیم
17	هم
18	بهره
19	می‌برد.
[0]
[@@@]
0	با
1	استفاده
2	از
3	این
4	مود
5	عکاسی
6	می‌توانید
7	به
8	آسانی
9	هرچه
10	تمام
11	تر
12	عکس‌های	T
13	بسیار
14	عریض	OP		12
15	پانوراما
16	تهیه
17	کنید.
[+1]
[@@@]
0	همچنین
1	این
2	دوربین
3	مود
4	عکاسی
5	3D
6	یا
7	سه
8	بعدی
9	هم
10	دارد.
[0]
[@@@]
0	با
1	استفاده
2	از
3	این
4	مود
5	می‌توانید
6	عکس‌های
7	سه
8	بعدی
9	بگیرید
10	و
11	سپس
12	آن‌ها
13	را
14	بر
15	روی
16	تلوزیون‌های
17	سه
18	بعدی
19	مشاهده
20	کنید.
[0]
[@@@]
0	از
1	دیگر
2	مودهای
3	موجود
4	بر
5	روی
6	این
7	دوربین
8	می‌توان
9	به
10	Superior
11	Auto،
12
13	Easy
14	Shooting،
15
16	Scene
17	selection،
18
19	Picture
20	Effect
21	و
22	Background
23	defocus
24	اشاره
25	کرد.
[0]
[@@@]
0	اما
1	بهتر
2	است
3	به
4	سراغ
5	ویژگی
6	خاص
7	این
8	دوربین
9	یعنی
10	لنز
11	آن
12	برویم.
[0]
[@@@]
0	به
1	دلیل
2	وجود
3	لنز
4	25-400
5	میلی
6	متر
7	با
8	توانایی
9	زوم
10	16
11	برابر،
12
13	HX10v
14	به
15	یک
16	دوربین
17	کامپکت
18	سوپرزوم
19	تبدیل
20	شده
21	است.
[0]
[@@@]
0	این
1	لنز
2	در
3	حالت
4	واید
5	25
6	میلی
7	متر
8	به
9	راحتی
10	توانایی
11	پوشش
12	میدان	T
13	دیدی
14	بسیار
15	گسترده	OP		12
16	را
17	دارد
18	تا
19	بتوانید
20	در
21	یک
22	کادر
23	عکس
24	یک
25	چشم
26	انداز
27	گسترده‌ی
28	طبیعی
29	را
30	بگیرید.
[+1]
[@@@]
0	ولی
1	اگر
2	همچنان
3	به
4	نظرتان
5	میدان
6	دید
7	کمی
8	می‌آید،
9
10	می‌توانید
11	از
12	مود
[...]
16	استفاده
17	کنید
18	تا
19	حتی
20	بتوانید
21	میدان
22	دید
23	180
24	و
25	یا
26	360
27	درجه
28	را
29	ثبت
30	کنید.
[0]
[@@@]
0	به
1	هر
2	صورت
3	فاصله‌ی
4	کانونی
5	معادل
6	25
7	میلی
8	متر
9	باعث
10	شده
11	است
12	که
13	این
14	دوربین
15	یکی
16	از
17	وایدترین	OP		18
18	لنزها	T
19	را
20	در
21	بین
22	دوربین‌های
23	غیر
24	DSLR
25	داشته
26	باشد.
[+1]
[@@@]
0	بزرگنمایی	T
1	16
2	برابر
3	نیز
4	کاملا
5	برای
6	ثبت
7	سوژه‌های
8	دوردست
9	مناسب	OP		0
10	می‌باشد.
[+1]
[@@@]
0	این
1	دوربین
2	مجهز
3	به
4	فن
5	آوری
6	لرزش
7	گیر
8	اپتیکال
9	Steady
10	Shot
11	می‌باشد
12	تا
13	بدین
14	ترتیب
15	لرزش
16	دست
17	شما
18	اثر
19	کمتری
20	در
21	عکسی
22	که
23	می‌گیرید
24	داشته
25	باشد
26	و
27	حتی
28	در
29	صورت
30	استفاده
31	از
32	زوم
33	بالا
34	یا
35	سرعت
36	شاتر
37	پایین
38	هم
39	بتوانید
40	عکس
41	هایی
42	شارپ
43	داشته
44	باشید.
[+1]
[@@@]
0	کمینه‌ی	T
1	نسبت
2	کانونی
3	این
4	لنز
5	f/3.3-5.9
6	است
7	که
8	برای
9	عکاسی
10	در
11	شرایط
12	ضعیف
13	نوری
14	نسبتا	OP		0
15	خوب
16	است.
[+1]
[@@@]
0	کمینه‌ی	T
1	فاصله‌ی
2	فوکوس
3	این
4	لنز
5	در
6	مود
7	ماکرو
8	5
9	سانتی
10	متر
11	است
12	که
13	عالیست.	OP		0
[+2]
[@@@]
0	اما
1	HX10v
2	مجهز
3	به
4	نمایشگر
5	3
6	اینچی
7	با
8	رزولوشن
9	921,000
10	پیکسل
11	می‌باشد.
[0]
[@@@]
0	هم
1	نمایشگر
2	ابعاد	T
3	بزرگ	OP		2
4	و
5	خوبی	OP		2
6	دارد
7	و
8	هم
9	اینکه
10	رزولوشن	T
11	آن
12	فوق	OP		10
13	العاده
14	است.
[0]
[@@@]
0	نمایشگر	T
1	بسیار
2	با	OP		0
3	کیفیت
4	می‌باشد
5	و
6	کادر
7	بندی
8	و
9	تماشای	T
10	عکس‌ها
11	از
12	طریق
13	آن
14	بسیار
15	لذت	OP		9
16	بخش
17	است.
[+2]
[@@@]
0	این
1	دوربین
2	توانایی
3	عکاسی
4	پیاپی
5	با
6	سرعت
7	10
8	فریم
9	بر
10	ثانیه
11	را
12	نیز
13	دارد
14	که
15	باز
16	هم
17	فوق
18	العاده
19	است.
[+2]
[@@@]
0	بدین
1	ترتیب
2	وقتی
3	بر
4	روی
5	مود
6	عکاسی
7	پیاپی
8	می‌روید،
9
10	کافیست
11	که
12	انگشت
13	خود
14	را
15	بر
16	روی
17	دکمه‌ی
18	شاتر
19	فشار
20	دهید
21	و
22	نگه
23	دارید
24	تا
25	دوربین
26	به
27	صورت
28	خودکار
29	و
30	با
31	سرعت
32	10
33	فریم
34	بر
35	ثانیه
36	عکس
37	بگیرد.
[0]
[@@@]
0	اما
1	HX10v
2	توانایی
3	ضبط
4	ویدیویی
5	1920X1080p
6	Full
7	HD
8	با
9	سرعت
10	60
11	فریم
12	بر
13	ثانیه
14	و
15	صدای
16	استریو
17	را
18	نیز
19	دارد.
[+1]
[@@@]
0	فیلم‌ها
1	کیفیت	T
2	فوق	OP		1
3	العاده
4	بالایی
5	دارند
6	و
7	در
8	فرمت
9	MPEG4
10	و
11	AVCHD
12	ذخیره
13	می‌شوند.
[+2]
[@@@]
0	پورت
1	HDMI
2	نیز
3	برای
4	انتقال
5	و
6	پخش
7	مستقیم
8	عکس‌ها
9	و
10	فیلم‌های
11	گرفته
12	شده
13	بر
14	روی
15	تلوزیون
16	دیجیتال
17	و
18	HDTV
19	هم
20	وجود
21	دارد.
[0]
[@@@]
0	عکس‌ها
1	و
2	فیلم‌ها
3	می‌توانند
4	بر
5	روی
6	کارت‌های
7	حافظه‌ی
8	SD/SDHC/SDXC/Memory
9	Stick
10	Duo,Pro
11	Duo,Pro
12	HG
13	Duo
14	ذخیره
15	شوند.
[0]
[@@@]
0	انرژی
1	این
2	دوربین
3	از
4	طریق
5	باتری
6	لیتیوم-یونی
7	قابل
8	شارژ
9	NP-BG1
10	تامین
11	می‌شود
12	که
13	در
14	هر
15	بار
16	شارژ
17	کامل
18	توانایی
19	پشتیبانی
20	برای
21	گرفتن
22	تا
23	320
24	عکس
25	را
26	دارد.
[0]
[@@@]
0	این
1	دوربین
2	GPS
3	داخلی
4	هم
5	دارد
6	که
7	بدین
8	ترتیب
9	وقتی
10	که
11	آن
12	را
13	روشن
14	می‌کنید
15	موقعیت
16	دقیق
17	مکانی
18	عکس
19	گرفته
20	شده
21	به
22	همراه
23	دیگر
24	اطلاعات
25	عکس
26	ثبت
27	می‌شود.
[+1]
[@@@]
0	به
1	هر
2	صورت
3	همانطور
4	که
5	گفتیم،
6
7	HX10v	T
8	یکی
9	از
10	پیشرفته	OP		7
11	ترین،
12
13	پر	OP		7
14	امکانات
15	ترین
16	و
17	خوش	OP		7
18	ساخت
19	ترین
20	دوربین‌های
21	کامپکت
22	سوپرزومی
23	است
24	که
25	تا
26	به
27	حال
28	دیده
29	ایم.
[+2]
[@@@]
0	همانطور
1	که
2	اشاره
3	کردیم
4	تقریبا
5	تنها
6	تفاوت
7	آن
8	با
9	HX20v
10	نیز
11	در
12	لنز
13	با
14	توانایی
15	زوم
16	کمتر
17	آن
18	می‌باشد
19	که
20	البته
21	بزرگنمایی
22	4
23	برابر
24	خیلی
25	تفاوت
26	زیادی
27	نیست
28	ولی
29	به
30	هر
31	صورت
32	اختلاف
33	قیمت
34	ایجاد
35	کرده
36	است.
[0]
[@@@]
0	در
1	آینده
2	سعی
3	می‌کنیم
4	اطلاعات
5	بیشتری
6	از
7	این
8	محصول
9	ارائه
10	دهیم.
[0]
[@@@]