Folder: MG-LDA/data/extra_edited (part 2)

File: Sony Cyber-Shot DSC-HX200V_Hosseini.txt
0	به
1	ادامه‌ی
2	توضیحات
3	درباره‌ی
4	این
5	دوربین
6	می‌پردازیم.
[0]
[@@@]
0	همانطور
1	که
2	گفتیم،
3
4	HX200v
5	مدل
6	سال
7	2012
8	دوربین
9	سال
10	پیش
11	HX100v
12	می‌باشد.
[0]
[@@@]
0	این
1	دوربین‌ها
2	هرچند
3	که
4	از
5	جهات
6	زیادی
7	به
8	دوربین‌های
9	Bridge
10	یا
11	DSLR
12	Like
13	شباهت
14	دارند،
15
16	ولی
17	با
18	ابعاد
19	122X87X93
20	میلی
21	متر
22	و
23	وزن
24	580
25	گرم،
26	دوربینی
27	کامپکت
28	و
29	سوپرزوم
30	محسوب
31	می‌شوند.
[0]
[@@@]
0	بنابراین
1	از
2	نظر
3	دسته
4	بندی
5	در
6	رده‌ی
7	کامپکت‌ها
8	قرار
9	می‌گیرد.
[0]
[@@@]
0	HX200v
1	را
2	می‌توان
3	با
4	Canon
5	Powershot
6	SX40
7	HS
8	مقایسه
9	کرد
10	ولی
11	مثلا
12	با
13	Fujifilm
14	Finepix
15	X-S1،
16
17	هرچند
18	که
19	ممکن
20	است
21	عملکردهایی
22	نسبتا
23	مشابه
24	را
25	از
26	خود
27	به
28	نمایش
29	بگذارند،
30
31	در
32	یک
33	رده
34	قرار
35	نمی‌گیرند.
[0]
[@@@]
0	این
1	در
2	حالیست
3	که
4	بر
5	روی
6	بدنه‌ی
7	آن
8	یک
9	دستگیره‌ی
10	بارز
11	وجود
12	دارد
13	که
14	در
15	دست
16	نگه	T
17	داشتن
18	دوربین
19	را
20	کاملاً
21	ساده	OP		16
22	می‌کند.
[+1]
[@@@]
0	ارگونومی،	T
1	طراحی	T
2	و
3	ساخت	T
4	آن
5	نیز
6	کاملاً
7	عالی،	OP		0	OP		1	OP		3
8	با	OP		0	OP		1	OP		3
9	کیفیت
10	و
11	اصولی	OP		0	OP		1	OP		3
12	می‌باشد
13	تا
14	در
15	هنگام
16	عکاسی
17	تسلط
18	کامل
19	را
20	بر
21	دوربین
22	داشته
23	باشید.
[+2]
[@@@]
0	پیش
1	از
2	این
3	و
4	به
5	هنگام
6	نقد
7	و
8	بررسی
9	دوربین
10	HX100v
11	به
12	این
13	نکته
14	اشاره
15	کرده
16	بودیم،
17
18	که
19	تقریبا
20	پیشرفته‌ترین
21	دوربین
22	کامپکت
23	سوپرزومی
24	است
25	که
26	تا
27	آن
28	زمان
29	دیده
30	بودیم.
[0]
[@@@]
0	با
1	اینکه
2	تغییراتی
3	انقلابی
4	در
5	HX200v
6	نسبت
7	به
8	مدل
9	پیشین
10	ایجاد
11	نشده،
12
13	و
14	فقط
15	شاهد
16	بهبودهایی
17	نسبتا
18	مختصر
19	هستیم،
20
21	ولی
22	باز
23	هم؛
24	این
25	بهترین
26	بودن
27	را
28	به
29	HX200v
30	هم
31	می‌توانیم
32	نسبت
33	دهیم.
[+1]
[@@@]
0	از
1	نظر
2	ارگونومی
3	و
4	طراحی،
5
6	به
7	دلیل
8	شباهت
9	بسیار
10	زیادی
11	که
12	بین
13	این
14	دو
15	وجود
16	دارد،
17
18	توضیح
19	بیشتری
20	نمی‌دهیم
21	و
22	برای
23	کسب
24	اطلاعات
25	بیشتر
26	در
27	این
28	زمینه
29	می‌توانید
30	به
31	نقد
32	و
33	بررسی
34	دوربین
35	HX100v
36	مراجعه
37	کنید.
[0]
[@@@]
0	فقط
1	در
2	همین
3	حد
4	اشاره
5	می‌کنیم
6	که
7	علاوه
8	بر
9	فن
10	آوری
11	هایی
12	که
13	در
14	این
15	دوربین
16	به
17	کار
18	رفته،
19
20	از
21	نظر
22	طراحی	T
23	نیز
24	یکی
25	از
26	بهترین‌ها	OP		22
27	می‌باشد.
[+2]
[@@@]
0	اما
1	این
2	دوربین
3	از
4	سنسور
5	تصویر
6	18.1
7	مگاپیکسلی
8	Exmor
9	R
10	CMOS
11	بهره
12	می‌برد.
[0]
[@@@]
0	دقیقا
1	همان
2	سنسوری
3	که
4	بر
5	روی
6	HX100v
7	هم
8	استفاده
9	شده
10	بود،
11
12	ولی
13	با
14	2
15	مگاپیکسل
16	رزولوشن	T
17	بیشتر.	OP		16
[+1]
[@@@]
0	سنسور
1	تصویر
2	از
3	همان
4	سنسورهای
5	1/2.3
6	اینچی
7	کوچک
8	است
9	که
10	بر
11	روی
12	دوربین‌های
13	این
14	رده
15	استفاده
16	می‌شود.
[0]
[@@@]
0	در
1	نقد
2	و
3	بررسی
4	HX100v
5	اشاره
6	کرده
7	بودیم
8	که
9	کیفیت
10	عکس‌های
11	گرفته
12	شده
13	فوق‌العاده
14	هستند.
[+2]
[@@@]
0	با
1	توجه
2	به
3	اینکه
4	تغییرات
5	زیادی
6	در
7	این
8	دوربین
9	نسبت
10	به
11	مدل
12	پیشین
13	وجود
14	ندارد،
15
16	به
17	احتمال
18	زیاد
19	باید
20	شاهد
21	نتایجی
22	مشابه
23	باشیم.
[0]
[@@@]
0	به
1	هر
2	صورت
3	منتظر
4	به
5	بازار
6	آمدن
7	این
8	دوربین
9	برای
10	نقد
11	و
12	بررسی
13	دقیق
14	تر
15	عکس‌های
16	آن
17	خواهیم
18	بود.
[0]
[@@@]
0	اما
1	مودهای	T
2	عکاسی
3	HX200v
4	هم
5	بسیار
6	متنوع	OP		1
7	هستند.
[+1]
[@@@]
0	به
1	صورتی
2	که
3	بر
4	روی
5	آن
6	شاهد
7	13
8	مود
9	عکاسی
10	هستیم
11	که
12	بوسیله‌ی
13	پیچ
14	تنظیم
15	قسمت
16	بالای
17	دوربین
18	قابل
19	انتخاب
20	می‌باشند.
[0]
[@@@]
0	بعضی
1	از
2	این
3	مودها
4	شامل
5	مود
6	عکاسی
7	intelligent
8	Auto
9	یا
10	اتوماتیک
11	هوشمند
12	برای
13	عکاسی
14	تماما
15	اتوماتیک،
16
17	مودهای
18	عکاسی
19	P,A,S,M
20	برای
21	عکاسی
22	خلاقانه
23	و
24	حرفه‌ای
25	و
26	مود
27	عکاسی
28	Sweep
29	Panorama
30	و
31	3D
32	می‌شوند
33	که
34	باز
35	هم
36	توضیح
37	بیشتری
38	نمی‌دهیم
39	تا
40	شما
41	را
42	به
43	نقد
44	و
45	بررسی
46	دوربین
47	HX100v
48	ارجاع
49	داده
50	باشیم.
[0]
[@@@]
0	یک
1	ویژگی
2	بسیار
3	خوب
4	دیگر
5	در
6	مورد
7	این
8	دوربین،
9
10	شارژدهی	T
11	باتری
12	آن
13	می‌باشد
14	که
15	از
16	مدل
17	پیشین
18	بیشتر	OP		10
19	است.
[+2]
[@@@]
0	باتری
1	لیتیومی
2	این
3	دوربین
4	در
5	یک
6	بار
7	شارژ
8	کامل
9	می‌تواند
10	برای
11	گرفتن
12	تا
13	450
14	عکس
15	را
16	پشتیبانی
17	کند
18	و
19	این
20	در
21	حالیست
22	که
23	باتری
24	HX100v
25	تنها
26	توانایی
27	گرفتن
28	تا
29	300
30	عکس
31	را
32	داشت.
[+1]
[@@@]
0	این
1	را
2	هم
3	بگوییم
4	که
5	گستره‌ی
6	سرعت
7	شاتر
8	HX200v
9	از
10	1/4000
11	ثانیه
12	تا
13	30
14	ثانیه
15	می‌باشد
16	که
17	گستره‌ای	T
18	کاملاً
19	حرفه‌ای	OP		17
20	و
21	در
22	حد
23	دوربین‌های
24	DSLR
25	سطح
26	مبتدی
27	است.
[+1]
[@@@]
0	اما
1	هرچند
2	که
3	رزولوشن	T
4	سنسور
5	تصویر
6	مقداری	OP		3
7	بالاتر
8	است،
9
10	ولی
11	HX200v
12	لنزی
13	کاملا
14	مشابه
15	با
16	لنز
17	HX100v
18	دارد.
[0]
[@@@]
0	همان
1	لنز
2	27-810
3	میلی
4	متری
5	با
6	توانایی
7	زوم
8	30
9	برابر
10	و
11	f/2.8-5.6
12	که
13	لنزی	T
14	کاملاً
15	سریع	OP		13
16	و
17	خوب	OP		13
18	برای
19	عکاسی
20	در
21	شرایط
22	ضعیف‌تر
23	نوری
24	است.
[+1]
[@@@]
0	این
1	لنز
2	مجهز
3	به
4	لرزش
5	گیر
6	اپتیکال
7	تصویر
8	Steady
9	Shot
10	نیز
11	هست
12	که
13	باعث
14	می‌شود
15	لرزش
16	دست
17	شما
18	در
19	عکسی
20	که
21	می‌گیرید
22	تاثیر
23	نداشته
24	باشد
25	تا
26	عکس
27	تار
28	نشود.
[+1]
[@@@]
0	فاصله‌ی	T
1	فوکوس
2	ماکرو
3	آن
4	نیز
5	1
6	سانتی
7	متر
8	می‌باشد
9	که
10	عالیست.	OP		0
[+2]
[@@@]
0	به
1	هر
2	صورت
3	در
4	مورد
5	لنز
6	هم
7	می‌توانید
8	به
9	نقد
10	و
11	بررسی
12	HX100v
13	مراجعه
14	کنید.
[0]
[@@@]
0	یک
1	حلقه
2	به
3	دور
4	بشکه‌ی
5	لنز
6	وجود
7	دارد
8	که
9	می‌توانید
10	با
11	چرخاندن
12	آن
13	عمل
14	زوم
15	را
16	انجام
17	دهید.
[0]
[@@@]
0	البته
1	یک
2	سویچ
3	در
4	کنار
5	آن
6	وجود
7	دارد
8	که
9	می‌توانید
10	انتخاب
11	کنید
12	که
13	با
14	حلقه
15	می‌خواهید
16	زوم
17	کنید
18	و
19	یا
20	عمل
21	فوکوس
22	را
23	انجام
24	دهید.
[0]
[@@@]
0	بدین
1	ترتیب
2	در
3	حقیقت
4	تقلیدی
5	از
6	زوم
7	و
8	فوکوس
9	دستی
10	دوربین‌های
11	DSLR
12	است.
[0]
[@@@]
0	آخری
1	به
2	خصوص
3	برای
4	گرفتن
5	عکس‌های
6	ماکرو
7	که
8	به
9	فوکوس
10	دقیق
11	احتیاج
12	دارند
13	بسیار
14	عالیست
15	چرا
16	که
17	وسط
18	نمایشگر
19	هم
20	بزرگنمایی
21	ایجاد
22	می‌شود.
[+2]
[@@@]
0	ترکیب
1	بیشینه‌ی
2	گشودگی
3	دهانه‌ی
4	f/2.8،
5
6	لرزش
7	گیر
8	تصویر
9	اپتیکال
10	و
11	بیشینه‌ی
12	حساسیت
13	سنسور
14	یا
15	ایزو
16	12,800
17	این
18	دوربین
19	را
20	کاملاً
21	مناسب
22	عکاسی
23	در
24	شرایط
25	نوری
26	ضعیف
27	کرده
28	است.
[+1]
[@@@]
0	در
1	ضمن
2	این
3	دوربین
4	یک
5	فلاش	T
6	Pop-up
7	بسیار
8	قدرتمند	OP		5
9	نیز
10	دارد
11	که
12	برد
13	موثر
14	آن
15	به
16	12.4
17	متر
18	می‌رسد.
[+2]
[@@@]
0	در
1	نقد
2	و
3	بررسی
4	HX100v
5	عنوان
6	کرده
7	بودیم
8	که
9	نداشتن
10	کفشک
11	فلاش
12	اکسترنال
13	برای
14	آن
15	یک
16	نقطه‌ی
17	ضعف
18	محسوب
19	می‌شود.
[-1]
[@@@]
0	ظاهرا
1	که
2	در
3	HX200v
4	هم
5	سونی
6	به
7	این
8	نتیجه
9	نرسیده
10	که
11	کفشک
12	فلاش
13	اکسترنال
14	لازم
15	است.
[0]
[@@@]
0	همانطور
1	که
2	در
3	مورد
4	مدل
5	پیشین
6	توضیح
7	دادیم،
8
9	HX200v
10	هم
11	توانایی
12	ضبط
13	ویدیویی
14	1080p
15	Full
16	HD
17	در
18	30
19	فریم
20	بر
21	ثانیه
22	با
23	صدای
24	استریو
25	را
26	دارد.
[0]
[@@@]
0	همچنین
1	آپشن‌های
2	فیلم
3	برداری
4	1920x1280
5
6	و
7
8	1440x1280در
9	50
10	فریم
11	بر
12	ثانیه
13	و
14	فرمت
15	AVCHD
16	و
17	همچنین
18	سایزهای
19	1440x1280،
20
21	1280x720
22
23	و
24
25	640x480در
26	25
27	فریم
28	بر
29	ثانیه
30	و
31	فرمت
32	MPEG4
33	هم
34	برای
35	آن
36	وجود
37	دارد.
[0]
[@@@]
0	زوم
1	کامل
2	اپتیکال
3	در
4	هنگام
5	فیلم
6	برداری
7	مقدور
8	می‌باشد.
[+1]
[@@@]
0	همچنین
1	در
2	این
[...]
9	که
10	به
11	شما
12	می‌گوید
13	عکس
14	شما
15	در
16	چه
17	جهتی
18	گرفته
19	شده
20	است!
[0]
[@@@]
0	GPS
1	می‌تواند
2	به
3	صورت
4	دستی
5	خاموش
6	یا
7	روشن
8	شود
9	و
10	وضعیت
11	آن
12	هم
13	به
14	صورت
15	آیکون
16	کوچکی
17	بر
18	روی
19	نمایشگر
20	به
21	نمایش
22	در
23	می‌آید.
[0]
[@@@]
0	همانطور
1	که
2	گفتیم،
3
4	دیگر
5	پیشرفت
6	این
7	دوربین
8	نسبت
9	به
10	مدل
11	پیشین،
12
13	به
14	بهره‌گیری
15	از
16	پورت
17	PictBridge
18	مربوط
19	می‌شود.
[+1]
[@@@]
0	با
1	استفاده
2	از
3	PictBridge
4	می‌توانید
5	دوربین
6	را
7	به
8	رایانه
9	متصل
10	کنید
11	و
12	با
13	سرعت	T
14	بسیار
15	زیادی	OP		13
16	به
17	انتقال
18	عکس‌ها
19	و
20	فیلم
21	هایی
22	که
23	گرفته
24	اید
25	بپردازید.
[+2]
[@@@]
0	همچنین
1	این
2	دوربین
3	از
4	کارت‌های
5	Eye
6	Fi
7	نیز
8	پشتیبانی
9	می‌کند
10	که
11	امکان
12	انتقال
13	عکس‌ها
14	و
15	فیلم‌ها
16	به
17	صورت
18	بیسیم
19	به
20	لپ
21	تاپ
22	را
23	میسر
24	می‌سازد.
[+1]
[@@@]
0	HX200v
1	مجهز
2	به
3	نمایشگر
4	3
5	اینچی
6	921,000
7	پیکسلی
8	نیز
9	می‌باشد
10	که
11	کیفیتی	T
12	بسیار
13	بالا	OP		11
14	را
15	ارائه
16	می‌دهد
17	و
18	یکی
19	از
20	با	OP		22
21	کیفیت‌ترین
22	نمایشگرهای	T
23	موجود
24	بر
25	روی
26	دوربین‌های
27	دیجیتال
28	می‌باشد.
[+2]
[@@@]
0	این
1	نمایشگر
2	می‌تواند
3	تا
4	90
5	درجه
6	به
7	سمت
8	بالا
9	و
10	پایین
11	چرخش
12	کند.
[0]
[@@@]
0	این
1	بسیار
2	خوب
3	است
4	هرچند
5	که
6	ترجیح
7	می‌دادیم
8	به
9	طرفین
10	هم
11	چرخش
12	می‌کرد.
[+1]
[@@@]
0	به
1	هر
2	صورت
3	همانطور
4	که
5	گفتیم،
6
7	HX200v
8	تنها
9	نسخه‌ای
10	بهبود
11	یافته
12	از
13	HX100v
14	می‌باشد
15	که
16	حتی
17	از
18	نظر
19	ابعاد،
20
21	وزن
22	و
23	طراحی
24	ظاهری
25	نیز
26	تفاوت
27	چندانی
28	با
29	آن
30	ندارد.
[0]
[@@@]
0	HX100v	T
1	دوربینی
2	فوق‌العاده	OP		0
3	پیشرفته
4	و
5	خوب،	OP		0
6
7	و
8	یکی
9	از
10	گران	ON		0
11	قیمت‌ترین
12	دوربین‌های
13	رده‌ی
14	خود
15	در
16	سال
17	2011
18	بود.
[+2]
[@@@]
0	اما
1	HX200v
2	با
3	توجه
4	به
5	بهبودهایی
6	که
7	داشته،
8
9	می‌تواند
10	جایگاه
11	مدل
12	پیشین
13	خود
14	را
15	در
16	سال
17	2012
18	حفظ
19	کند
20	و
21	تقریبا
22	بهترین
23	در
24	کلاس
25	خود
26	باشد.
[+1]
[@@@]
0	در
1	آینده
2	و
3	با
4	به
5	بازار
6	آمدن
7	این
8	دوربین،
9
10	سعی
11	می‌کنیم
12	که
13	آپدیت
14	هایی
15	بر
16	روی
17	این
18	نقد
19	و
20	بررسی
21	داشته
22	باشیم.
[0]
[@@@]
0	به
1	روز
2	رسانی:
3	باتری
4	لیتیوم
5	یونی
6	قابل
7	شارژ
8	این
9	دوربین
10	در
11	هر
12	بار
13	شارژ
14	کامل
15	توانایی
16	شارژدهی
17	برای
18	400
19	تا
20	490
21	عکس
22	را
23	دارد
24	که
25	مقدار
26	نسبتاً
27	خوبی
28	است.
[+1]
[@@@]
0	بزرگترین
1	مزیت
2	دوربین‌های
3	سوپرزوم
4	این
5	چنینی،
6
7	قابلیت‌های
8	فراوانی
9	است
10	که
11	به
12	شما
13	در
14	عکاسی
15	از
16	چشم
17	اندازهای
18	گسترده
19	تا
20	مناظر
21	بسیار
22	دوردست
23	می‌دهند.
[+1]
[@@@]
0	تصاویر
1	HX200v
2	نیز
3	مانند
4	بیشتر
5	رقبا،
6
7	در
8	حالت
9	واید
10	کامل
11	و
12	زوم
13	کامل
14	در
15	گوشه‌ها
16	کنی
17	سافت
18	است.
[0]
[@@@]
0	همچنین
1	در
2	مناطق
3	پر
4	کنتراست
5	مقداری
6	Pixel
7	Fringing
8	مشاهده
9	می‌شود.
[0]
[@@@]
0	برای
1	عکاسی
2	در
3	شرایط
4	نوری
5	ضعیف
6	هم،
7
8	گستره‌ی	T
9	حساسیت
10	سنسور
11	آن
12	از
13	100
14	تا
15	12800
16	است
17	که
18	کاملاً
19	حرفه‌ای	OP		8
20	و
21	عالیست.	OP		8
[+2]
[@@@]
0	البته
1	برای
2	دور
3	ماندن
4	از
5	نویز
6	شدید
7	در
8	عکس
9	بهتر
10	است
11	که
12	از
13	ایزو
14	نویز
15	شدید
16	در
17	عکس
18	بهتر
19	است
20	که
21	از
22	ایزو
23	3200
24	و
25	پایین
26	تر
27	استفاده
28	کنید.
[0]
[@@@]
0	هرچند
1	که
2	همچنان
3	تا
4	ایزو
5	6400
6	هم
7	عکس‌ها
8	کاملا
9	قابل
10	استفاده
11	هستند.
[0]
[@@@]
0	از
1	رقبای
2	اصلی
3	این
4	دوربین
5	می‌توان
6	به
7	Canon
8	Powershot
9	SX40
10	HS،
11
12	Casio
13	EX-FH25،
14
15	Fujifilm
16	Finepix
17	HS20
18	EXR،
19
20	Nikon
21	Coolpix
22	P510،
23
24	Olympus
25	SP-810
26	UZ،
27
28	Panasonic
29	Lumix
30	DMC-FZ150
31	و
32	Samsung
33	WB5000
34	اشاره
35	کرد.
[0]
[@@@]